Jan. 13, 2025   13:45:06
Cyclic Voltammetry
File: c:/users/lab/d3talesrobotics/roboticsui/test_data\cv_test_43.bin
Data Source:  Experiment
Instrument Model:  CHI650E
Header:  CV CV_Test_43
Note: 

Init E (V) = 0
High E (V) = 0.5
Low E (V) = -0.2
Final E (V) = -0.2
Init P/N = P
Scan Rate (V/s) = 0.1
Segment = 2
Sample Interval (V) = 0.01
Quiet Time (sec) = 2
Sensitivity (A/V) = 1e-6

Segment 1:

Segment 2:

Potential/V, Current/A

0.005, 1.035e-9
0.015, 1.314e-9
0.025, 1.653e-9
0.035, 2.060e-9
0.045, 2.545e-9
0.055, 3.101e-9
0.065, 3.757e-9
0.075, 4.526e-9
0.085, 5.405e-9
0.095, 6.426e-9
0.105, 7.607e-9
0.115, 8.960e-9
0.125, 1.050e-8
0.135, 1.226e-8
0.145, 1.421e-8
0.155, 1.632e-8
0.165, 1.863e-8
0.175, 2.111e-8
0.185, 2.372e-8
0.195, 2.647e-8
0.205, 2.927e-8
0.215, 3.206e-8
0.225, 3.490e-8
0.235, 3.765e-8
0.245, 4.023e-8
0.255, 4.256e-8
0.265, 4.459e-8
0.275, 4.627e-8
0.285, 4.760e-8
0.295, 4.860e-8
0.305, 4.932e-8
0.315, 4.984e-8
0.325, 5.021e-8
0.335, 5.049e-8
0.345, 5.069e-8
0.355, 5.085e-8
0.365, 5.097e-8
0.375, 5.107e-8
0.385, 5.114e-8
0.395, 5.121e-8
0.405, 5.127e-8
0.415, 5.133e-8
0.425, 5.137e-8
0.435, 5.141e-8
0.445, 5.146e-8
0.455, 5.148e-8
0.465, 5.151e-8
0.475, 5.154e-8
0.485, 5.156e-8
0.495, 5.159e-8
0.495, 5.147e-8
0.485, 5.125e-8
0.475, 5.107e-8
0.465, 5.088e-8
0.455, 5.069e-8
0.445, 5.050e-8
0.435, 5.030e-8
0.425, 5.011e-8
0.415, 4.992e-8
0.405, 4.971e-8
0.395, 4.950e-8
0.385, 4.929e-8
0.375, 4.906e-8
0.365, 4.882e-8
0.355, 4.855e-8
0.345, 4.826e-8
0.335, 4.795e-8
0.325, 4.757e-8
0.315, 4.715e-8
0.305, 4.666e-8
0.295, 4.607e-8
0.285, 4.536e-8
0.275, 4.449e-8
0.265, 4.347e-8
0.255, 4.223e-8
0.245, 4.077e-8
0.235, 3.908e-8
0.225, 3.719e-8
0.215, 3.506e-8
0.205, 3.274e-8
0.195, 3.034e-8
0.185, 2.784e-8
0.175, 2.521e-8
0.165, 2.259e-8
0.155, 1.999e-8
0.145, 1.746e-8
0.135, 1.507e-8
0.125, 1.281e-8
0.115, 1.073e-8
0.105, 8.847e-9
0.095, 7.154e-9
0.085, 5.632e-9
0.075, 4.315e-9
0.065, 3.195e-9
0.055, 2.259e-9
0.045, 1.483e-9
0.035, 8.609e-10
0.025, 3.667e-10
0.015, -5.698e-12
0.005, -2.759e-10
-0.005, -4.734e-10
-0.015, -5.883e-10
-0.025, -6.551e-10
-0.035, -6.895e-10
-0.045, -6.895e-10
-0.055, -6.758e-10
-0.065, -6.512e-10
-0.075, -6.257e-10
-0.085, -6.050e-10
-0.095, -5.707e-10
-0.105, -5.441e-10
-0.115, -5.205e-10
-0.125, -4.930e-10
-0.135, -4.724e-10
-0.145, -4.400e-10
-0.155, -4.282e-10
-0.165, -4.076e-10
-0.175, -3.889e-10
-0.185, -3.761e-10
-0.195, -3.643e-10
