Wed Aug  9 13:26:19 2023
Cyclic Voltammetry
File: examples/cv_example.csv
Data Source: KBIO Potentiostat
Instrument Model: VSP
Header: 
Note: 

Init E (V) = -0.05
High E (V) = 0.69
Low E (V) = -0.30
Scan Rate (V/s) = 0.300
Segment = 6
Sample Interval (V) = 1.000e-02

Potential/V, Current/A
-4.544e-02, 7.795e-08
4.299e-03, 9.810e-06
1.470e-02, 5.209e-06
2.470e-02, 7.282e-06
3.463e-02, 1.036e-05
4.449e-02, 1.467e-05
5.423e-02, 2.055e-05
6.378e-02, 2.831e-05
7.320e-02, 3.823e-05
8.257e-02, 5.046e-05
9.163e-02, 6.488e-05
1.006e-01, 8.133e-05
1.094e-01, 9.931e-05
1.186e-01, 1.141e-04
1.271e-01, 1.367e-04
1.359e-01, 1.546e-04
1.449e-01, 1.705e-04
1.542e-01, 1.831e-04
1.638e-01, 1.912e-04
1.737e-01, 1.944e-04
1.840e-01, 1.923e-04
1.947e-01, 1.857e-04
2.055e-01, 1.762e-04
2.164e-01, 1.657e-04
2.273e-01, 1.554e-04
2.382e-01, 1.460e-04
2.489e-01, 1.378e-04
2.596e-01, 1.306e-04
2.702e-01, 1.244e-04
2.808e-01, 1.190e-04
2.914e-01, 1.143e-04
3.017e-01, 1.102e-04
3.122e-01, 1.065e-04
3.227e-01, 1.032e-04
3.330e-01, 1.002e-04
3.434e-01, 9.752e-05
3.537e-01, 9.508e-05
3.640e-01, 9.281e-05
3.744e-01, 9.070e-05
3.847e-01, 8.882e-05
3.949e-01, 8.698e-05
4.053e-01, 8.532e-05
4.155e-01, 8.377e-05
4.258e-01, 8.231e-05
4.360e-01, 8.090e-05
4.463e-01, 7.958e-05
4.566e-01, 7.835e-05
4.668e-01, 7.717e-05
4.770e-01, 7.605e-05
4.873e-01, 7.498e-05
4.975e-01, 7.398e-05
5.078e-01, 7.300e-05
5.180e-01, 7.209e-05
5.283e-01, 7.119e-05
5.385e-01, 7.032e-05
5.487e-01, 6.953e-05
5.589e-01, 6.873e-05
5.691e-01, 6.799e-05
5.793e-01, 6.728e-05
5.895e-01, 6.661e-05
5.997e-01, 6.594e-05
6.100e-01, 6.530e-05
6.202e-01, 6.470e-05
6.304e-01, 6.414e-05
6.405e-01, 6.362e-05
6.508e-01, 6.319e-05
6.712e-01, 6.253e-05
6.814e-01, 6.207e-05
6.910e-01, 6.189e-05
6.907e-01, 6.065e-05
6.806e-01, 5.948e-05
6.705e-01, 5.877e-05
6.604e-01, 5.817e-05
6.502e-01, 5.766e-05
6.401e-01, 5.721e-05
6.300e-01, 5.675e-05
6.199e-01, 5.634e-05
6.097e-01, 5.591e-05
5.996e-01, 5.549e-05
5.895e-01, 5.514e-05
5.793e-01, 5.476e-05
5.692e-01, 5.438e-05
5.590e-01, 5.403e-05
5.489e-01, 5.365e-05
5.388e-01, 5.331e-05
5.287e-01, 5.298e-05
5.185e-01, 5.266e-05
5.084e-01, 5.233e-05
4.982e-01, 5.200e-05
4.880e-01, 5.167e-05
4.779e-01, 5.137e-05
4.678e-01, 5.107e-05
4.577e-01, 5.079e-05
4.475e-01, 5.049e-05
4.373e-01, 5.019e-05
4.272e-01, 4.991e-05
4.171e-01, 4.962e-05
4.069e-01, 4.935e-05
3.968e-01, 4.909e-05
3.866e-01, 4.881e-05
3.765e-01, 4.853e-05
3.664e-01, 4.826e-05
3.562e-01, 4.799e-05
3.461e-01, 4.771e-05
3.359e-01, 4.740e-05
3.258e-01, 4.708e-05
3.156e-01, 4.671e-05
3.054e-01, 4.629e-05
2.953e-01, 4.579e-05
2.852e-01, 4.516e-05
2.751e-01, 4.432e-05
2.650e-01, 4.320e-05
2.549e-01, 4.169e-05
2.449e-01, 3.966e-05
2.349e-01, 3.689e-05
2.251e-01, 3.309e-05
2.153e-01, 2.796e-05
2.056e-01, 2.115e-05
1.961e-01, 1.234e-05
1.867e-01, 1.281e-06
1.775e-01, -1.204e-05
1.685e-01, -2.758e-05
1.596e-01, -4.501e-05
1.508e-01, -6.371e-05
1.421e-01, -8.292e-05
1.240e-01, -1.158e-04
1.152e-01, -1.339e-04
1.058e-01, -1.452e-04
9.618e-02, -1.517e-04
8.602e-02, -1.528e-04
7.558e-02, -1.488e-04
6.491e-02, -1.408e-04
5.401e-02, -1.309e-04
4.308e-02, -1.204e-04
3.219e-02, -1.105e-04
2.138e-02, -1.017e-04
1.066e-02, -9.390e-05
8.963e-05, -8.722e-05
-1.047e-02, -8.148e-05
-2.094e-02, -7.651e-05
-3.143e-02, -7.212e-05
-4.187e-02, -6.826e-05
-5.230e-02, -6.487e-05
-6.267e-02, -6.184e-05
-7.304e-02, -5.910e-05
-9.369e-02, -5.440e-05
-1.040e-01, -5.209e-05
-1.143e-01, -5.019e-05
-1.246e-01, -4.845e-05
-1.349e-01, -4.684e-05
-1.452e-01, -4.532e-05
-1.554e-01, -4.390e-05
-1.657e-01, -4.258e-05
-1.760e-01, -4.133e-05
-1.862e-01, -4.017e-05
-1.963e-01, -3.908e-05
-2.066e-01, -3.804e-05
-2.169e-01, -3.704e-05
-2.271e-01, -3.611e-05
-2.374e-01, -3.523e-05
-2.476e-01, -3.439e-05
-2.578e-01, -3.360e-05
-2.680e-01, -3.284e-05
-2.782e-01, -3.211e-05
-2.884e-01, -3.141e-05
-2.955e-01, -3.096e-05
-2.928e-01, -3.046e-05
-2.827e-01, -2.963e-05
-2.726e-01, -2.891e-05
-2.625e-01, -2.823e-05
-2.524e-01, -2.759e-05
-2.422e-01, -2.700e-05
-2.321e-01, -2.644e-05
-2.220e-01, -2.590e-05
-2.119e-01, -2.538e-05
-2.017e-01, -2.487e-05
-1.916e-01, -2.440e-05
-1.815e-01, -2.393e-05
-1.714e-01, -2.349e-05
-1.613e-01, -2.307e-05
-1.511e-01, -2.265e-05
-1.410e-01, -2.223e-05
-1.308e-01, -2.185e-05
-1.206e-01, -2.147e-05
-1.105e-01, -2.111e-05
-1.004e-01, -2.074e-05
-9.032e-02, -2.037e-05
-8.015e-02, -1.999e-05
-6.998e-02, -1.962e-05
-5.985e-02, -1.923e-05
-4.971e-02, -1.880e-05
-3.958e-02, -1.831e-05
-2.942e-02, -1.773e-05
-1.938e-02, -1.700e-05
-9.283e-03, -1.607e-05
