Jan. 13, 2025   12:59:14
Cyclic Voltammetry
File: c:/users/lab/d3talesrobotics/roboticsui/test_data\potentiostatstation_test.bin
Data Source:  Experiment
Instrument Model:  CHI650E
Header:  CV PotentiostatStation_Test
Note: 

Init E (V) = 0
High E (V) = 0.5
Low E (V) = -0.2
Final E (V) = -0.2
Init P/N = P
Scan Rate (V/s) = 0.1
Segment = 2
Sample Interval (V) = 0.01
Quiet Time (sec) = 2
Sensitivity (A/V) = 1e-6

Segment 1:

Segment 2:

Potential/V, Current/A

0.005, -7.793e-10
0.015, -9.287e-10
0.025, -1.098e-9
0.035, -1.282e-9
0.045, -1.507e-9
0.055, -1.754e-9
0.065, -2.027e-9
0.075, -2.343e-9
0.085, -2.696e-9
0.095, -3.086e-9
0.105, -3.521e-9
0.115, -4.016e-9
0.125, -4.544e-9
0.135, -5.133e-9
0.145, -5.775e-9
0.155, -6.482e-9
0.165, -7.246e-9
0.175, -8.065e-9
0.185, -8.926e-9
0.195, -9.856e-9
0.205, -1.087e-8
0.215, -1.196e-8
0.225, -1.312e-8
0.235, -1.434e-8
0.245, -1.563e-8
0.255, -1.700e-8
0.265, -1.844e-8
0.275, -1.996e-8
0.285, -2.155e-8
0.295, -2.320e-8
0.305, -2.494e-8
0.315, -2.674e-8
0.325, -2.860e-8
0.335, -3.046e-8
0.345, -3.240e-8
0.355, -3.445e-8
0.365, -3.655e-8
0.375, -3.868e-8
0.385, -4.087e-8
0.395, -4.308e-8
0.405, -4.532e-8
0.415, -4.757e-8
0.425, -4.978e-8
0.435, -5.197e-8
0.445, -5.413e-8
0.455, -5.623e-8
0.465, -5.823e-8
0.475, -6.009e-8
0.485, -6.180e-8
0.495, -6.332e-8
0.495, -6.378e-8
0.485, -6.313e-8
0.475, -6.245e-8
0.465, -6.172e-8
0.455, -6.093e-8
0.445, -6.009e-8
0.435, -5.918e-8
0.425, -5.820e-8
0.415, -5.714e-8
0.405, -5.602e-8
0.395, -5.483e-8
0.385, -5.356e-8
0.375, -5.223e-8
0.365, -5.084e-8
0.355, -4.941e-8
0.345, -4.792e-8
0.335, -4.634e-8
0.325, -4.471e-8
0.315, -4.303e-8
0.305, -4.132e-8
0.295, -3.956e-8
0.285, -3.778e-8
0.275, -3.599e-8
0.265, -3.414e-8
0.255, -3.230e-8
0.245, -3.051e-8
0.235, -2.871e-8
0.225, -2.688e-8
0.215, -2.504e-8
0.205, -2.324e-8
0.195, -2.145e-8
0.185, -1.971e-8
0.175, -1.801e-8
0.165, -1.636e-8
0.155, -1.477e-8
0.145, -1.325e-8
0.135, -1.180e-8
0.125, -1.042e-8
0.115, -9.129e-9
0.105, -7.940e-9
0.095, -6.816e-9
0.085, -5.775e-9
0.075, -4.835e-9
0.065, -4.000e-9
0.055, -3.251e-9
0.045, -2.598e-9
0.035, -2.028e-9
0.025, -1.537e-9
0.015, -1.113e-9
0.005, -7.567e-10
-0.005, -4.492e-10
-0.015, -2.055e-10
-0.025, -3.144e-12
-0.035, 1.580e-10
-0.045, 2.936e-10
-0.055, 3.938e-10
-0.065, 4.665e-10
-0.075, 5.215e-10
-0.085, 5.539e-10
-0.095, 5.726e-10
-0.105, 5.805e-10
-0.115, 5.765e-10
-0.125, 5.539e-10
-0.135, 5.372e-10
-0.145, 5.196e-10
-0.155, 5.009e-10
-0.165, 4.763e-10
-0.175, 4.547e-10
-0.185, 4.459e-10
-0.195, 4.292e-10
