Jan. 13, 2025   13:09:05
Cyclic Voltammetry
File: c:/users/lab/d3talesrobotics/roboticsui/test_data\potentiostatstation_test_40.bin
Data Source:  Experiment
Instrument Model:  CHI650E
Header:  CV PotentiostatStation_Test_40
Note: 

Init E (V) = 0
High E (V) = 0.5
Low E (V) = -0.2
Final E (V) = -0.2
Init P/N = P
Scan Rate (V/s) = 0.1
Segment = 2
Sample Interval (V) = 0.01
Quiet Time (sec) = 2
Sensitivity (A/V) = 1e-6

Segment 1:

Segment 2:

Potential/V, Current/A

0.005, 9.238e-10
0.015, 1.194e-9
0.025, 1.521e-9
0.035, 1.911e-9
0.045, 2.380e-9
0.055, 2.938e-9
0.065, 3.597e-9
0.075, 4.375e-9
0.085, 5.279e-9
0.095, 6.335e-9
0.105, 7.545e-9
0.115, 8.911e-9
0.125, 1.045e-8
0.135, 1.217e-8
0.145, 1.407e-8
0.155, 1.616e-8
0.165, 1.844e-8
0.175, 2.093e-8
0.185, 2.359e-8
0.195, 2.642e-8
0.205, 2.940e-8
0.215, 3.252e-8
0.225, 3.573e-8
0.235, 3.903e-8
0.245, 4.233e-8
0.255, 4.558e-8
0.265, 4.870e-8
0.275, 5.159e-8
0.285, 5.419e-8
0.295, 5.641e-8
0.305, 5.823e-8
0.315, 5.966e-8
0.325, 6.072e-8
0.335, 6.149e-8
0.345, 6.203e-8
0.355, 6.242e-8
0.365, 6.270e-8
0.375, 6.292e-8
0.385, 6.308e-8
0.395, 6.320e-8
0.405, 6.330e-8
0.415, 6.338e-8
0.425, 6.345e-8
0.435, 6.351e-8
0.445, 6.356e-8
0.455, 6.361e-8
0.465, 6.365e-8
0.475, 6.370e-8
0.485, 6.372e-8
0.495, 6.375e-8
0.495, 6.362e-8
0.485, 6.336e-8
0.475, 6.314e-8
0.465, 6.291e-8
0.455, 6.268e-8
0.445, 6.245e-8
0.435, 6.221e-8
0.425, 6.196e-8
0.415, 6.174e-8
0.405, 6.147e-8
0.395, 6.120e-8
0.385, 6.092e-8
0.375, 6.062e-8
0.365, 6.029e-8
0.355, 5.991e-8
0.345, 5.949e-8
0.335, 5.902e-8
0.325, 5.847e-8
0.315, 5.780e-8
0.305, 5.701e-8
0.295, 5.605e-8
0.285, 5.491e-8
0.275, 5.356e-8
0.265, 5.195e-8
0.255, 5.009e-8
0.245, 4.798e-8
0.235, 4.563e-8
0.225, 4.306e-8
0.215, 4.031e-8
0.205, 3.741e-8
0.195, 3.443e-8
0.185, 3.140e-8
0.175, 2.837e-8
0.165, 2.538e-8
0.155, 2.244e-8
0.145, 1.963e-8
0.135, 1.695e-8
0.125, 1.446e-8
0.115, 1.216e-8
0.105, 1.008e-8
0.095, 8.196e-9
0.085, 6.541e-9
0.075, 5.099e-9
0.065, 3.857e-9
0.055, 2.803e-9
0.045, 1.923e-9
0.035, 1.197e-9
0.025, 6.143e-10
0.015, 1.545e-10
0.005, -1.924e-10
-0.005, -4.567e-10
-0.015, -6.394e-10
-0.025, -7.455e-10
-0.035, -8.084e-10
-0.045, -8.202e-10
-0.055, -8.241e-10
-0.065, -8.035e-10
-0.075, -7.731e-10
-0.085, -7.387e-10
-0.095, -7.072e-10
-0.105, -6.738e-10
-0.115, -6.424e-10
-0.125, -6.109e-10
-0.135, -5.834e-10
-0.145, -5.569e-10
-0.155, -5.255e-10
-0.165, -5.088e-10
-0.175, -4.881e-10
-0.185, -4.626e-10
-0.195, -4.410e-10
